participant	gender	age	handedness	block_num	trial_num	practicing	mask_type	mask_size	background	figure	d_orientation	rt	response	initial_fixation
6b0d31c0d563223024da45691584643ac78c96e8	m	12	r	0	1	False	central	4	square	figure	180	2.48170900345	SQUARE	BOTTOM
6b0d31c0d563223024da45691584643ac78c96e8	m	12	r	0	2	False	central	4	circle	figure	270	0.624273061752	CIRCLE	BOTTOM
6b0d31c0d563223024da45691584643ac78c96e8	m	12	r	0	3	False	central	4	square	background	180	0.848226070404	SQUARE	BOTTOM
6b0d31c0d563223024da45691584643ac78c96e8	m	12	r	0	4	False	central	4	circle	background	270	0.677344083786	CIRCLE	BOTTOM
6b0d31c0d563223024da45691584643ac78c96e8	m	12	r	0	5	False	central	6	square	figure	0	0.785389900208	SQUARE	TOP
6b0d31c0d563223024da45691584643ac78c96e8	m	12	r	0	6	False	central	6	circle	figure	90	0.677599906921	CIRCLE	BOTTOM
6b0d31c0d563223024da45691584643ac78c96e8	m	12	r	0	7	False	central	6	square	background	90	0.463531970978	CIRCLE	BOTTOM
6b0d31c0d563223024da45691584643ac78c96e8	m	12	r	0	8	False	central	6	circle	background	180	1.0731048584	CIRCLE	BOTTOM
6b0d31c0d563223024da45691584643ac78c96e8	m	12	r	0	9	False	central	8	square	figure	270	1.66823220253	SQUARE	BOTTOM
6b0d31c0d563223024da45691584643ac78c96e8	m	12	r	0	10	False	central	8	circle	figure	180	0.720598936081	CIRCLE	BOTTOM
6b0d31c0d563223024da45691584643ac78c96e8	m	12	r	0	11	False	central	8	square	background	180	1.13738894463	SQUARE	BOTTOM
6b0d31c0d563223024da45691584643ac78c96e8	m	12	r	0	12	False	central	8	circle	background	270	0.619335889816	CIRCLE	TOP
6b0d31c0d563223024da45691584643ac78c96e8	m	12	r	0	13	False	peripheral	4	square	figure	0	1.61597394943	SQUARE	BOTTOM
6b0d31c0d563223024da45691584643ac78c96e8	m	12	r	0	14	False	peripheral	4	circle	figure	0	1.27539086342	CIRCLE	BOTTOM
6b0d31c0d563223024da45691584643ac78c96e8	m	12	r	0	15	False	peripheral	4	square	background	90	1.45780897141	SQUARE	TOP
6b0d31c0d563223024da45691584643ac78c96e8	m	12	r	0	16	False	peripheral	4	circle	background	0	0.916996955872	CIRCLE	TOP
6b0d31c0d563223024da45691584643ac78c96e8	m	12	r	0	17	False	peripheral	6	square	figure	90	1.63864898682	SQUARE	BOTTOM
6b0d31c0d563223024da45691584643ac78c96e8	m	12	r	0	18	False	peripheral	6	circle	figure	180	1.15645098686	CIRCLE	BOTTOM
6b0d31c0d563223024da45691584643ac78c96e8	m	12	r	0	19	False	peripheral	6	square	background	270	1.11043310165	SQUARE	BOTTOM
6b0d31c0d563223024da45691584643ac78c96e8	m	12	r	0	20	False	peripheral	6	circle	background	0	1.0942928791	CIRCLE	TOP
6b0d31c0d563223024da45691584643ac78c96e8	m	12	r	0	21	False	peripheral	8	square	figure	90	1.86732602119	SQUARE	BOTTOM
6b0d31c0d563223024da45691584643ac78c96e8	m	12	r	0	22	False	peripheral	8	circle	figure	0	1.17592906952	CIRCLE	BOTTOM
6b0d31c0d563223024da45691584643ac78c96e8	m	12	r	0	23	False	peripheral	8	square	background	270	1.18935489655	SQUARE	BOTTOM
6b0d31c0d563223024da45691584643ac78c96e8	m	12	r	0	24	False	peripheral	8	circle	background	270	0.933269023895	CIRCLE	BOTTOM
6b0d31c0d563223024da45691584643ac78c96e8	m	12	r	0	1	False	central	4	square	figure	270	-1.0	TIMEOUT	TOP
6b0d31c0d563223024da45691584643ac78c96e8	m	12	r	0	1	False	central	4	square	figure	0	1.94473910332	SQUARE	TOP
6b0d31c0d563223024da45691584643ac78c96e8	m	12	r	0	1	False	central	4	circle	figure	0	1.63114786148	CIRCLE	BOTTOM
6b0d31c0d563223024da45691584643ac78c96e8	m	12	r	0	1	False	central	4	square	background	270	0.99075293541	SQUARE	TOP
6b0d31c0d563223024da45691584643ac78c96e8	m	12	r	0	1	False	central	4	circle	background	0	1.057502985	CIRCLE	TOP
6b0d31c0d563223024da45691584643ac78c96e8	m	12	r	0	1	False	central	4	square	figure	180	0.764400005341	SQUARE	BOTTOM
6b0d31c0d563223024da45691584643ac78c96e8	m	12	r	0	2	False	central	4	circle	figure	180	1.31178212166	CIRCLE	BOTTOM
6b0d31c0d563223024da45691584643ac78c96e8	m	12	r	0	3	False	central	4	square	background	180	0.59604716301	SQUARE	BOTTOM
6b0d31c0d563223024da45691584643ac78c96e8	m	12	r	0	4	False	central	4	circle	background	270	0.701789855957	CIRCLE	TOP
6b0d31c0d563223024da45691584643ac78c96e8	m	12	r	0	5	False	central	6	square	figure	270	0.73201584816	SQUARE	TOP
6b0d31c0d563223024da45691584643ac78c96e8	m	12	r	0	6	False	central	6	circle	figure	0	0.600783109665	SQUARE	TOP
6b0d31c0d563223024da45691584643ac78c96e8	m	12	r	0	7	False	central	6	square	background	0	0.822160959244	CIRCLE	BOTTOM
6b0d31c0d563223024da45691584643ac78c96e8	m	12	r	0	8	False	central	6	circle	background	270	1.36788201332	CIRCLE	BOTTOM
6b0d31c0d563223024da45691584643ac78c96e8	m	12	r	0	9	False	central	8	square	figure	0	0.699742078781	SQUARE	TOP
6b0d31c0d563223024da45691584643ac78c96e8	m	12	r	0	10	False	central	8	circle	figure	180	2.15865206718	CIRCLE	BOTTOM
6b0d31c0d563223024da45691584643ac78c96e8	m	12	r	0	11	False	central	8	square	background	0	1.57561302185	SQUARE	BOTTOM
6b0d31c0d563223024da45691584643ac78c96e8	m	12	r	0	12	False	central	8	circle	background	270	1.33462691307	CIRCLE	TOP
6b0d31c0d563223024da45691584643ac78c96e8	m	12	r	0	13	False	peripheral	4	square	figure	90	1.00111198425	SQUARE	BOTTOM
6b0d31c0d563223024da45691584643ac78c96e8	m	12	r	0	14	False	peripheral	4	circle	figure	270	1.7343211174	CIRCLE	BOTTOM
6b0d31c0d563223024da45691584643ac78c96e8	m	12	r	0	15	False	peripheral	4	square	background	270	0.633043050766	SQUARE	BOTTOM
6b0d31c0d563223024da45691584643ac78c96e8	m	12	r	0	16	False	peripheral	4	circle	background	0	1.11871790886	CIRCLE	TOP
6b0d31c0d563223024da45691584643ac78c96e8	m	12	r	0	17	False	peripheral	6	square	figure	0	1.14514708519	SQUARE	TOP
6b0d31c0d563223024da45691584643ac78c96e8	m	12	r	0	18	False	peripheral	6	circle	figure	0	1.14914083481	CIRCLE	BOTTOM
6b0d31c0d563223024da45691584643ac78c96e8	m	12	r	0	19	False	peripheral	6	square	background	90	0.937002897263	SQUARE	BOTTOM
6b0d31c0d563223024da45691584643ac78c96e8	m	12	r	0	20	False	peripheral	6	circle	background	90	0.799424886703	CIRCLE	BOTTOM
6b0d31c0d563223024da45691584643ac78c96e8	m	12	r	0	21	False	peripheral	8	square	figure	90	0.76797914505	SQUARE	BOTTOM
6b0d31c0d563223024da45691584643ac78c96e8	m	12	r	0	22	False	peripheral	8	circle	figure	270	2.2331840992	CIRCLE	BOTTOM
6b0d31c0d563223024da45691584643ac78c96e8	m	12	r	0	23	False	peripheral	8	square	background	270	0.883924007416	SQUARE	TOP
6b0d31c0d563223024da45691584643ac78c96e8	m	12	r	0	24	False	peripheral	8	circle	background	270	0.892825841904	CIRCLE	TOP
6b0d31c0d563223024da45691584643ac78c96e8	m	12	r	0	1	False	peripheral	8	circle	background	270	2.35637903214	CIRCLE	BOTTOM
6b0d31c0d563223024da45691584643ac78c96e8	m	12	r	0	2	False	central	8	square	figure	0	2.21282911301	SQUARE	BOTTOM
6b0d31c0d563223024da45691584643ac78c96e8	m	12	r	0	3	False	central	4	circle	background	90	0.972490787506	CIRCLE	BOTTOM
6b0d31c0d563223024da45691584643ac78c96e8	m	12	r	0	4	False	peripheral	4	square	figure	90	0.704916954041	SQUARE	BOTTOM
6b0d31c0d563223024da45691584643ac78c96e8	m	12	r	0	5	False	peripheral	8	square	background	0	0.737799882889	SQUARE	TOP
6b0d31c0d563223024da45691584643ac78c96e8	m	12	r	0	6	False	peripheral	8	square	figure	270	0.768265008926	SQUARE	BOTTOM
6b0d31c0d563223024da45691584643ac78c96e8	m	12	r	0	7	False	central	4	square	figure	270	1.10569286346	SQUARE	BOTTOM
6b0d31c0d563223024da45691584643ac78c96e8	m	12	r	0	8	False	peripheral	6	square	figure	180	1.29890298843	SQUARE	BOTTOM
6b0d31c0d563223024da45691584643ac78c96e8	m	12	r	0	9	False	central	8	circle	figure	0	1.49892401695	CIRCLE	TOP
6b0d31c0d563223024da45691584643ac78c96e8	m	12	r	0	10	False	central	8	square	background	180	2.11306786537	SQUARE	BOTTOM
6b0d31c0d563223024da45691584643ac78c96e8	m	12	r	0	11	False	central	8	circle	background	270	1.55827593803	CIRCLE	TOP
6b0d31c0d563223024da45691584643ac78c96e8	m	12	r	0	12	False	central	6	circle	background	180	1.06009602547	CIRCLE	BOTTOM
6b0d31c0d563223024da45691584643ac78c96e8	m	12	r	0	13	False	central	6	square	background	90	0.615808010101	SQUARE	BOTTOM
6b0d31c0d563223024da45691584643ac78c96e8	m	12	r	0	14	False	peripheral	8	circle	figure	0	0.683949947357	CIRCLE	TOP
6b0d31c0d563223024da45691584643ac78c96e8	m	12	r	0	15	False	central	6	square	figure	270	1.08839416504	SQUARE	BOTTOM
6b0d31c0d563223024da45691584643ac78c96e8	m	12	r	0	16	False	central	6	circle	figure	0	1.78689193726	SQUARE	BOTTOM
6b0d31c0d563223024da45691584643ac78c96e8	m	12	r	0	17	False	central	4	circle	figure	90	0.840272903442	CIRCLE	BOTTOM
6b0d31c0d563223024da45691584643ac78c96e8	m	12	r	0	18	False	peripheral	4	circle	figure	270	1.17699480057	CIRCLE	TOP
6b0d31c0d563223024da45691584643ac78c96e8	m	12	r	0	19	False	peripheral	6	circle	figure	180	0.827445030212	CIRCLE	BOTTOM
6b0d31c0d563223024da45691584643ac78c96e8	m	12	r	0	20	False	peripheral	6	circle	background	180	1.59629917145	CIRCLE	TOP
6b0d31c0d563223024da45691584643ac78c96e8	m	12	r	0	21	False	central	4	square	background	0	1.12648701668	SQUARE	BOTTOM
6b0d31c0d563223024da45691584643ac78c96e8	m	12	r	0	22	False	peripheral	4	circle	background	90	1.82848095894	CIRCLE	BOTTOM
6b0d31c0d563223024da45691584643ac78c96e8	m	12	r	0	23	False	peripheral	6	square	background	180	0.704192876816	SQUARE	BOTTOM
6b0d31c0d563223024da45691584643ac78c96e8	m	12	r	0	24	False	peripheral	4	square	background	270	0.90978717804	SQUARE	TOP
6b0d31c0d563223024da45691584643ac78c96e8	m	12	r	0	1	False	peripheral	4	square	figure	0	0.809509992599	SQUARE	BOTTOM
6b0d31c0d563223024da45691584643ac78c96e8	m	12	r	0	2	False	peripheral	4	circle	background	0	1.40989112854	CIRCLE	TOP
6b0d31c0d563223024da45691584643ac78c96e8	m	12	r	0	3	False	central	6	circle	figure	0	1.50432682037	CIRCLE	BOTTOM
6b0d31c0d563223024da45691584643ac78c96e8	m	12	r	0	4	False	central	4	circle	figure	0	0.761822938919	CIRCLE	TOP
6b0d31c0d563223024da45691584643ac78c96e8	m	12	r	0	5	False	central	6	square	figure	270	0.878081083298	SQUARE	BOTTOM
6b0d31c0d563223024da45691584643ac78c96e8	m	12	r	0	6	False	peripheral	8	circle	background	180	0.647782087326	CIRCLE	BOTTOM
6b0d31c0d563223024da45691584643ac78c96e8	m	12	r	0	7	False	central	8	circle	figure	180	2.22208595276	CIRCLE	BOTTOM
6b0d31c0d563223024da45691584643ac78c96e8	m	12	r	0	8	False	central	4	square	background	180	0.698411941528	SQUARE	TOP
6b0d31c0d563223024da45691584643ac78c96e8	m	12	r	0	9	False	peripheral	6	circle	background	270	1.0767929554	CIRCLE	TOP
6b0d31c0d563223024da45691584643ac78c96e8	m	12	r	0	10	False	central	8	square	background	270	1.68278408051	SQUARE	BOTTOM
6b0d31c0d563223024da45691584643ac78c96e8	m	12	r	0	11	False	peripheral	8	circle	figure	270	0.645555973053	CIRCLE	TOP
6b0d31c0d563223024da45691584643ac78c96e8	m	12	r	0	12	False	central	4	circle	background	270	0.697266101837	CIRCLE	BOTTOM
6b0d31c0d563223024da45691584643ac78c96e8	m	12	r	0	13	False	central	6	circle	background	0	1.35861301422	CIRCLE	BOTTOM
6b0d31c0d563223024da45691584643ac78c96e8	m	12	r	0	14	False	peripheral	6	square	background	0	0.645143032074	SQUARE	TOP
6b0d31c0d563223024da45691584643ac78c96e8	m	12	r	0	15	False	peripheral	4	square	background	0	0.730848073959	SQUARE	TOP
6b0d31c0d563223024da45691584643ac78c96e8	m	12	r	0	16	False	peripheral	4	circle	figure	270	1.34529900551	CIRCLE	BOTTOM
6b0d31c0d563223024da45691584643ac78c96e8	m	12	r	0	17	False	peripheral	8	square	figure	0	0.773422956467	SQUARE	TOP
6b0d31c0d563223024da45691584643ac78c96e8	m	12	r	0	18	False	central	6	square	background	90	0.622745990753	SQUARE	TOP
6b0d31c0d563223024da45691584643ac78c96e8	m	12	r	0	19	False	peripheral	6	square	figure	90	0.621233940125	SQUARE	BOTTOM
6b0d31c0d563223024da45691584643ac78c96e8	m	12	r	0	20	False	central	8	square	figure	0	2.71226477623	SQUARE	BOTTOM
6b0d31c0d563223024da45691584643ac78c96e8	m	12	r	0	21	False	central	4	square	figure	180	1.37229394913	SQUARE	TOP
6b0d31c0d563223024da45691584643ac78c96e8	m	12	r	0	22	False	central	8	circle	background	270	1.48157000542	CIRCLE	BOTTOM
6b0d31c0d563223024da45691584643ac78c96e8	m	12	r	0	23	False	peripheral	6	circle	figure	0	1.15248298645	CIRCLE	BOTTOM
6b0d31c0d563223024da45691584643ac78c96e8	m	12	r	0	24	False	peripheral	8	square	background	90	0.621700048447	SQUARE	BOTTOM
6b0d31c0d563223024da45691584643ac78c96e8	m	12	r	0	1	False	peripheral	6	circle	figure	0	0.9714448452	CIRCLE	TOP
6b0d31c0d563223024da45691584643ac78c96e8	m	12	r	0	2	False	peripheral	8	square	background	270	0.846376895905	SQUARE	TOP
6b0d31c0d563223024da45691584643ac78c96e8	m	12	r	0	3	False	central	6	square	figure	180	0.704119920731	SQUARE	BOTTOM
6b0d31c0d563223024da45691584643ac78c96e8	m	12	r	0	4	False	central	4	square	figure	90	0.649777889252	SQUARE	TOP
6b0d31c0d563223024da45691584643ac78c96e8	m	12	r	0	5	False	peripheral	4	circle	background	0	0.667925834656	CIRCLE	BOTTOM
6b0d31c0d563223024da45691584643ac78c96e8	m	12	r	0	6	False	peripheral	4	square	figure	270	1.38309979439	SQUARE	TOP
6b0d31c0d563223024da45691584643ac78c96e8	m	12	r	0	7	False	peripheral	4	circle	figure	0	0.793586015701	CIRCLE	BOTTOM
6b0d31c0d563223024da45691584643ac78c96e8	m	12	r	0	8	False	central	8	circle	background	270	0.930009841919	CIRCLE	TOP
6b0d31c0d563223024da45691584643ac78c96e8	m	12	r	0	9	False	central	4	square	background	180	0.649245977402	SQUARE	TOP
6b0d31c0d563223024da45691584643ac78c96e8	m	12	r	0	10	False	central	6	square	background	270	1.11799788475	SQUARE	BOTTOM
6b0d31c0d563223024da45691584643ac78c96e8	m	12	r	0	11	False	peripheral	6	circle	background	270	0.867560863495	CIRCLE	TOP
6b0d31c0d563223024da45691584643ac78c96e8	m	12	r	0	12	False	peripheral	6	square	background	270	0.653971910477	SQUARE	BOTTOM
6b0d31c0d563223024da45691584643ac78c96e8	m	12	r	0	13	False	central	8	square	figure	90	2.36475586891	CIRCLE	BOTTOM
6b0d31c0d563223024da45691584643ac78c96e8	m	12	r	0	14	False	central	8	circle	figure	90	2.59121489525	SQUARE	TOP
6b0d31c0d563223024da45691584643ac78c96e8	m	12	r	0	15	False	peripheral	4	square	background	270	1.22168207169	CIRCLE	BOTTOM
6b0d31c0d563223024da45691584643ac78c96e8	m	12	r	0	16	False	peripheral	8	square	figure	0	2.43795585632	SQUARE	TOP
6b0d31c0d563223024da45691584643ac78c96e8	m	12	r	0	17	False	central	4	circle	background	90	1.74486088753	CIRCLE	BOTTOM
6b0d31c0d563223024da45691584643ac78c96e8	m	12	r	0	18	False	peripheral	6	square	figure	90	1.01365303993	SQUARE	BOTTOM
6b0d31c0d563223024da45691584643ac78c96e8	m	12	r	0	19	False	peripheral	8	circle	background	270	0.927237033844	CIRCLE	BOTTOM
6b0d31c0d563223024da45691584643ac78c96e8	m	12	r	0	20	False	central	8	square	background	0	1.30163693428	SQUARE	BOTTOM
6b0d31c0d563223024da45691584643ac78c96e8	m	12	r	0	21	False	central	4	circle	figure	270	0.762861967087	CIRCLE	BOTTOM
6b0d31c0d563223024da45691584643ac78c96e8	m	12	r	0	22	False	central	6	circle	figure	0	-1.0	TIMEOUT	TOP
6b0d31c0d563223024da45691584643ac78c96e8	m	12	r	0	23	False	central	6	circle	background	0	0.88644695282	CIRCLE	TOP
6b0d31c0d563223024da45691584643ac78c96e8	m	12	r	0	24	False	peripheral	8	circle	figure	0	0.868553876877	CIRCLE	BOTTOM
6b0d31c0d563223024da45691584643ac78c96e8	m	12	r	0	1	False	central	4	square	figure	180	0.560557126999	CIRCLE	BOTTOM
6b0d31c0d563223024da45691584643ac78c96e8	m	12	r	0	2	False	central	4	circle	figure	180	0.92048406601	CIRCLE	BOTTOM
6b0d31c0d563223024da45691584643ac78c96e8	m	12	r	0	3	False	central	4	square	background	0	0.864854097366	SQUARE	TOP
6b0d31c0d563223024da45691584643ac78c96e8	m	12	r	0	4	False	central	4	circle	background	180	1.23336005211	CIRCLE	BOTTOM
6b0d31c0d563223024da45691584643ac78c96e8	m	12	r	0	5	False	central	6	square	figure	180	2.3698451519	SQUARE	TOP
6b0d31c0d563223024da45691584643ac78c96e8	m	12	r	0	6	False	central	6	circle	figure	270	0.644690990448	CIRCLE	BOTTOM
6b0d31c0d563223024da45691584643ac78c96e8	m	12	r	0	7	False	central	6	square	background	270	0.979258060455	SQUARE	TOP
6b0d31c0d563223024da45691584643ac78c96e8	m	12	r	0	8	False	central	6	circle	background	0	1.19927287102	CIRCLE	BOTTOM
6b0d31c0d563223024da45691584643ac78c96e8	m	12	r	0	9	False	central	8	square	figure	270	-1.0	TIMEOUT	TOP
6b0d31c0d563223024da45691584643ac78c96e8	m	12	r	0	10	False	central	8	circle	figure	270	2.12886500359	CIRCLE	BOTTOM
6b0d31c0d563223024da45691584643ac78c96e8	m	12	r	0	11	False	central	8	square	background	90	2.91377186775	SQUARE	BOTTOM
6b0d31c0d563223024da45691584643ac78c96e8	m	12	r	0	12	False	central	8	circle	background	0	1.51053786278	CIRCLE	BOTTOM
6b0d31c0d563223024da45691584643ac78c96e8	m	12	r	0	13	False	peripheral	4	square	figure	0	1.28164601326	SQUARE	BOTTOM
6b0d31c0d563223024da45691584643ac78c96e8	m	12	r	0	14	False	peripheral	4	circle	figure	270	0.827136993408	CIRCLE	BOTTOM
6b0d31c0d563223024da45691584643ac78c96e8	m	12	r	0	15	False	peripheral	4	square	background	180	0.900795936584	SQUARE	BOTTOM
6b0d31c0d563223024da45691584643ac78c96e8	m	12	r	0	16	False	peripheral	4	circle	background	90	2.60481405258	CIRCLE	BOTTOM
6b0d31c0d563223024da45691584643ac78c96e8	m	12	r	0	17	False	peripheral	6	square	figure	270	1.27808594704	SQUARE	TOP
6b0d31c0d563223024da45691584643ac78c96e8	m	12	r	0	18	False	peripheral	6	circle	figure	90	0.823501110077	CIRCLE	BOTTOM
6b0d31c0d563223024da45691584643ac78c96e8	m	12	r	0	19	False	peripheral	6	square	background	0	1.30739784241	SQUARE	BOTTOM
6b0d31c0d563223024da45691584643ac78c96e8	m	12	r	0	20	False	peripheral	6	circle	background	0	2.29829883575	CIRCLE	BOTTOM
6b0d31c0d563223024da45691584643ac78c96e8	m	12	r	0	21	False	peripheral	8	square	figure	270	1.00353002548	SQUARE	TOP
6b0d31c0d563223024da45691584643ac78c96e8	m	12	r	0	22	False	peripheral	8	circle	figure	90	0.882631063461	CIRCLE	BOTTOM
6b0d31c0d563223024da45691584643ac78c96e8	m	12	r	0	23	False	peripheral	8	square	background	180	0.863774061203	SQUARE	BOTTOM
6b0d31c0d563223024da45691584643ac78c96e8	m	12	r	0	24	False	peripheral	8	circle	background	0	0.642703056335	CIRCLE	BOTTOM
6b0d31c0d563223024da45691584643ac78c96e8	m	12	r	0	1	False	peripheral	8	circle	background	180	0.767465829849	CIRCLE	BOTTOM
6b0d31c0d563223024da45691584643ac78c96e8	m	12	r	0	2	False	central	6	circle	figure	0	1.95979595184	CIRCLE	BOTTOM
6b0d31c0d563223024da45691584643ac78c96e8	m	12	r	0	3	False	peripheral	6	square	background	90	0.970596075058	SQUARE	BOTTOM
6b0d31c0d563223024da45691584643ac78c96e8	m	12	r	0	4	False	peripheral	6	circle	background	90	1.47852182388	CIRCLE	BOTTOM
6b0d31c0d563223024da45691584643ac78c96e8	m	12	r	0	5	False	peripheral	4	square	background	90	0.893175840378	SQUARE	TOP
6b0d31c0d563223024da45691584643ac78c96e8	m	12	r	0	6	False	central	4	square	background	0	2.37322497368	SQUARE	BOTTOM
6b0d31c0d563223024da45691584643ac78c96e8	m	12	r	0	7	False	peripheral	4	square	figure	90	2.93501782417	SQUARE	TOP
6b0d31c0d563223024da45691584643ac78c96e8	m	12	r	0	8	False	peripheral	6	circle	figure	0	0.888075113297	CIRCLE	BOTTOM
6b0d31c0d563223024da45691584643ac78c96e8	m	12	r	0	9	False	central	6	square	background	90	0.847223997116	SQUARE	BOTTOM
6b0d31c0d563223024da45691584643ac78c96e8	m	12	r	0	10	False	central	6	square	figure	90	1.64318799973	SQUARE	BOTTOM
6b0d31c0d563223024da45691584643ac78c96e8	m	12	r	0	11	False	central	4	square	figure	180	1.355219841	SQUARE	TOP
6b0d31c0d563223024da45691584643ac78c96e8	m	12	r	0	12	False	central	8	circle	figure	270	2.03320193291	CIRCLE	BOTTOM
6b0d31c0d563223024da45691584643ac78c96e8	m	12	r	0	13	False	central	4	circle	background	270	1.38669109344	CIRCLE	TOP
6b0d31c0d563223024da45691584643ac78c96e8	m	12	r	0	14	False	peripheral	6	square	figure	270	1.52506709099	SQUARE	BOTTOM
6b0d31c0d563223024da45691584643ac78c96e8	m	12	r	0	15	False	central	6	circle	background	0	2.2103099823	CIRCLE	BOTTOM
6b0d31c0d563223024da45691584643ac78c96e8	m	12	r	0	16	False	central	8	square	figure	180	1.60664892197	SQUARE	TOP
6b0d31c0d563223024da45691584643ac78c96e8	m	12	r	0	17	False	central	4	circle	figure	90	0.602982997894	CIRCLE	TOP
6b0d31c0d563223024da45691584643ac78c96e8	m	12	r	0	18	False	central	8	square	background	270	1.33355808258	SQUARE	TOP
6b0d31c0d563223024da45691584643ac78c96e8	m	12	r	0	19	False	central	8	circle	background	180	1.79026699066	CIRCLE	BOTTOM
6b0d31c0d563223024da45691584643ac78c96e8	m	12	r	0	20	False	peripheral	8	square	figure	180	0.982069015503	SQUARE	TOP
6b0d31c0d563223024da45691584643ac78c96e8	m	12	r	0	21	False	peripheral	8	square	background	270	1.07111096382	SQUARE	BOTTOM
6b0d31c0d563223024da45691584643ac78c96e8	m	12	r	0	22	False	peripheral	4	circle	figure	90	0.980481147766	CIRCLE	BOTTOM
6b0d31c0d563223024da45691584643ac78c96e8	m	12	r	0	23	False	peripheral	8	circle	figure	0	0.875643014908	CIRCLE	TOP
6b0d31c0d563223024da45691584643ac78c96e8	m	12	r	0	24	False	peripheral	4	circle	background	180	0.918508052826	CIRCLE	BOTTOM
6b0d31c0d563223024da45691584643ac78c96e8	m	12	r	0	1	False	central	8	square	background	270	1.8162419796	SQUARE	BOTTOM
6b0d31c0d563223024da45691584643ac78c96e8	m	12	r	0	2	False	peripheral	6	circle	figure	180	0.877002000809	CIRCLE	TOP
6b0d31c0d563223024da45691584643ac78c96e8	m	12	r	0	3	False	peripheral	8	circle	background	270	0.662603139877	CIRCLE	BOTTOM
6b0d31c0d563223024da45691584643ac78c96e8	m	12	r	0	4	False	peripheral	8	square	background	270	0.600723028183	SQUARE	TOP
6b0d31c0d563223024da45691584643ac78c96e8	m	12	r	0	5	False	peripheral	4	square	figure	90	2.20927381516	SQUARE	TOP
6b0d31c0d563223024da45691584643ac78c96e8	m	12	r	0	6	False	peripheral	4	square	background	90	1.33671593666	SQUARE	TOP
6b0d31c0d563223024da45691584643ac78c96e8	m	12	r	0	7	False	peripheral	6	square	figure	180	2.57801699638	SQUARE	BOTTOM
6b0d31c0d563223024da45691584643ac78c96e8	m	12	r	0	8	False	peripheral	6	circle	background	0	0.65914106369	CIRCLE	TOP
6b0d31c0d563223024da45691584643ac78c96e8	m	12	r	0	9	False	central	4	square	figure	0	0.870130062103	SQUARE	BOTTOM
6b0d31c0d563223024da45691584643ac78c96e8	m	12	r	0	10	False	central	4	circle	background	270	1.04428887367	CIRCLE	TOP
6b0d31c0d563223024da45691584643ac78c96e8	m	12	r	0	11	False	central	8	circle	background	90	0.911839962006	CIRCLE	BOTTOM
6b0d31c0d563223024da45691584643ac78c96e8	m	12	r	0	12	False	peripheral	8	square	figure	270	0.762548923492	SQUARE	TOP
6b0d31c0d563223024da45691584643ac78c96e8	m	12	r	0	13	False	central	4	square	background	180	0.773149013519	SQUARE	BOTTOM
6b0d31c0d563223024da45691584643ac78c96e8	m	12	r	0	14	False	peripheral	4	circle	figure	0	0.886471986771	CIRCLE	TOP
6b0d31c0d563223024da45691584643ac78c96e8	m	12	r	0	15	False	central	6	circle	background	180	1.00247311592	CIRCLE	BOTTOM
6b0d31c0d563223024da45691584643ac78c96e8	m	12	r	0	16	False	central	8	square	figure	270	1.44833397865	SQUARE	BOTTOM
6b0d31c0d563223024da45691584643ac78c96e8	m	12	r	0	17	False	central	4	circle	figure	90	0.774179935455	CIRCLE	BOTTOM
6b0d31c0d563223024da45691584643ac78c96e8	m	12	r	0	18	False	central	8	circle	figure	0	1.39901614189	CIRCLE	BOTTOM
6b0d31c0d563223024da45691584643ac78c96e8	m	12	r	0	19	False	central	6	square	figure	90	2.32975292206	CIRCLE	BOTTOM
6b0d31c0d563223024da45691584643ac78c96e8	m	12	r	0	20	False	central	6	circle	figure	90	1.35354208946	CIRCLE	BOTTOM
6b0d31c0d563223024da45691584643ac78c96e8	m	12	r	0	21	False	central	6	square	background	270	1.54379010201	SQUARE	BOTTOM
6b0d31c0d563223024da45691584643ac78c96e8	m	12	r	0	22	False	peripheral	8	circle	figure	270	0.85200881958	CIRCLE	BOTTOM
6b0d31c0d563223024da45691584643ac78c96e8	m	12	r	0	23	False	peripheral	6	square	background	180	1.05130505562	SQUARE	TOP
6b0d31c0d563223024da45691584643ac78c96e8	m	12	r	0	24	False	peripheral	4	circle	background	90	0.561312198639	CIRCLE	BOTTOM
6b0d31c0d563223024da45691584643ac78c96e8	m	12	r	0	1	False	peripheral	8	circle	background	90	0.603482961655	CIRCLE	BOTTOM
6b0d31c0d563223024da45691584643ac78c96e8	m	12	r	0	2	False	peripheral	8	circle	figure	90	0.889214992523	CIRCLE	BOTTOM
6b0d31c0d563223024da45691584643ac78c96e8	m	12	r	0	3	False	peripheral	8	square	figure	90	1.15348601341	SQUARE	TOP
6b0d31c0d563223024da45691584643ac78c96e8	m	12	r	0	4	False	peripheral	4	circle	background	180	0.59549498558	CIRCLE	BOTTOM
6b0d31c0d563223024da45691584643ac78c96e8	m	12	r	0	5	False	central	6	circle	figure	270	1.17613506317	CIRCLE	TOP
6b0d31c0d563223024da45691584643ac78c96e8	m	12	r	0	6	False	central	8	circle	background	270	0.938276052475	CIRCLE	BOTTOM
6b0d31c0d563223024da45691584643ac78c96e8	m	12	r	0	7	False	central	4	square	background	180	0.688117027283	SQUARE	BOTTOM
6b0d31c0d563223024da45691584643ac78c96e8	m	12	r	0	8	False	central	8	square	figure	270	1.05400896072	SQUARE	TOP
6b0d31c0d563223024da45691584643ac78c96e8	m	12	r	0	9	False	peripheral	8	square	background	180	0.706278085709	SQUARE	BOTTOM
6b0d31c0d563223024da45691584643ac78c96e8	m	12	r	0	10	False	central	4	square	figure	90	1.14883899689	SQUARE	BOTTOM
6b0d31c0d563223024da45691584643ac78c96e8	m	12	r	0	11	False	peripheral	6	circle	figure	90	0.869789838791	CIRCLE	TOP
6b0d31c0d563223024da45691584643ac78c96e8	m	12	r	0	12	False	central	6	square	figure	0	1.17782187462	SQUARE	BOTTOM
6b0d31c0d563223024da45691584643ac78c96e8	m	12	r	0	13	False	central	4	circle	background	90	0.901860952377	CIRCLE	BOTTOM
6b0d31c0d563223024da45691584643ac78c96e8	m	12	r	0	14	False	central	8	circle	figure	0	2.015832901	CIRCLE	TOP
6b0d31c0d563223024da45691584643ac78c96e8	m	12	r	0	15	False	central	6	square	background	0	0.668997049332	SQUARE	BOTTOM
6b0d31c0d563223024da45691584643ac78c96e8	m	12	r	0	16	False	peripheral	6	square	background	180	1.04818701744	SQUARE	BOTTOM
6b0d31c0d563223024da45691584643ac78c96e8	m	12	r	0	17	False	peripheral	6	circle	background	180	0.591818094254	CIRCLE	BOTTOM
6b0d31c0d563223024da45691584643ac78c96e8	m	12	r	0	18	False	central	8	square	background	0	1.33720803261	SQUARE	TOP
6b0d31c0d563223024da45691584643ac78c96e8	m	12	r	0	19	False	central	4	circle	figure	270	0.731646060944	CIRCLE	BOTTOM
6b0d31c0d563223024da45691584643ac78c96e8	m	12	r	0	20	False	central	6	circle	background	180	1.60384011269	CIRCLE	BOTTOM
6b0d31c0d563223024da45691584643ac78c96e8	m	12	r	0	21	False	peripheral	4	circle	figure	270	1.69642400742	CIRCLE	BOTTOM
6b0d31c0d563223024da45691584643ac78c96e8	m	12	r	0	22	False	peripheral	4	square	background	180	0.635428905487	SQUARE	BOTTOM
6b0d31c0d563223024da45691584643ac78c96e8	m	12	r	0	23	False	peripheral	6	square	figure	180	2.14969205856	SQUARE	TOP
6b0d31c0d563223024da45691584643ac78c96e8	m	12	r	0	24	False	peripheral	4	square	figure	90	1.49897289276	SQUARE	BOTTOM
6b0d31c0d563223024da45691584643ac78c96e8	m	12	r	0	1	False	central	4	square	figure	90	1.70604610443	SQUARE	BOTTOM
6b0d31c0d563223024da45691584643ac78c96e8	m	12	r	0	2	False	central	4	circle	figure	270	0.815089941025	CIRCLE	BOTTOM
6b0d31c0d563223024da45691584643ac78c96e8	m	12	r	0	3	False	central	4	square	background	270	1.15525102615	SQUARE	TOP
6b0d31c0d563223024da45691584643ac78c96e8	m	12	r	0	4	False	central	4	circle	background	180	0.890100002289	CIRCLE	BOTTOM
6b0d31c0d563223024da45691584643ac78c96e8	m	12	r	0	5	False	central	6	square	figure	0	1.05193901062	SQUARE	BOTTOM
6b0d31c0d563223024da45691584643ac78c96e8	m	12	r	0	6	False	central	6	circle	figure	180	0.644295215607	CIRCLE	BOTTOM
6b0d31c0d563223024da45691584643ac78c96e8	m	12	r	0	7	False	central	6	square	background	90	0.74599814415	SQUARE	BOTTOM
6b0d31c0d563223024da45691584643ac78c96e8	m	12	r	0	8	False	central	6	circle	background	0	1.38041186333	SQUARE	BOTTOM
6b0d31c0d563223024da45691584643ac78c96e8	m	12	r	0	9	False	central	8	square	figure	270	1.12381100655	SQUARE	BOTTOM
6b0d31c0d563223024da45691584643ac78c96e8	m	12	r	0	10	False	central	8	circle	figure	180	1.39974808693	CIRCLE	TOP
6b0d31c0d563223024da45691584643ac78c96e8	m	12	r	0	11	False	central	8	square	background	90	0.590241909027	SQUARE	BOTTOM
6b0d31c0d563223024da45691584643ac78c96e8	m	12	r	0	12	False	central	8	circle	background	90	0.611385822296	CIRCLE	BOTTOM
6b0d31c0d563223024da45691584643ac78c96e8	m	12	r	0	13	False	peripheral	4	square	figure	0	2.85158109665	SQUARE	BOTTOM
6b0d31c0d563223024da45691584643ac78c96e8	m	12	r	0	14	False	peripheral	4	circle	figure	0	1.78208208084	CIRCLE	BOTTOM
6b0d31c0d563223024da45691584643ac78c96e8	m	12	r	0	15	False	peripheral	4	square	background	0	0.919571876526	SQUARE	BOTTOM
6b0d31c0d563223024da45691584643ac78c96e8	m	12	r	0	16	False	peripheral	4	circle	background	270	0.74617600441	CIRCLE	BOTTOM
6b0d31c0d563223024da45691584643ac78c96e8	m	12	r	0	17	False	peripheral	6	square	figure	180	1.91937088966	SQUARE	TOP
6b0d31c0d563223024da45691584643ac78c96e8	m	12	r	0	18	False	peripheral	6	circle	figure	180	1.3969039917	CIRCLE	BOTTOM
6b0d31c0d563223024da45691584643ac78c96e8	m	12	r	0	19	False	peripheral	6	square	background	270	0.67258810997	SQUARE	BOTTOM
6b0d31c0d563223024da45691584643ac78c96e8	m	12	r	0	20	False	peripheral	6	circle	background	90	0.839851856232	CIRCLE	BOTTOM
6b0d31c0d563223024da45691584643ac78c96e8	m	12	r	0	21	False	peripheral	8	square	figure	180	1.54747796059	SQUARE	BOTTOM
6b0d31c0d563223024da45691584643ac78c96e8	m	12	r	0	22	False	peripheral	8	circle	figure	90	1.60162901878	CIRCLE	BOTTOM
6b0d31c0d563223024da45691584643ac78c96e8	m	12	r	0	23	False	peripheral	8	square	background	90	0.649174928665	SQUARE	BOTTOM
6b0d31c0d563223024da45691584643ac78c96e8	m	12	r	0	24	False	peripheral	8	circle	background	180	1.46791505814	CIRCLE	BOTTOM
6b0d31c0d563223024da45691584643ac78c96e8	m	12	r	0	1	False	central	8	circle	figure	180	0.766637802124	CIRCLE	TOP
6b0d31c0d563223024da45691584643ac78c96e8	m	12	r	0	2	False	peripheral	8	square	figure	90	1.17920994759	SQUARE	BOTTOM
6b0d31c0d563223024da45691584643ac78c96e8	m	12	r	0	3	False	peripheral	6	square	figure	180	1.43719792366	SQUARE	TOP
6b0d31c0d563223024da45691584643ac78c96e8	m	12	r	0	4	False	peripheral	4	circle	background	180	0.811887979507	CIRCLE	BOTTOM
6b0d31c0d563223024da45691584643ac78c96e8	m	12	r	0	5	False	central	8	circle	background	270	1.32482600212	CIRCLE	TOP
6b0d31c0d563223024da45691584643ac78c96e8	m	12	r	0	6	False	peripheral	8	circle	background	0	0.840438842773	CIRCLE	TOP
6b0d31c0d563223024da45691584643ac78c96e8	m	12	r	0	7	False	peripheral	6	circle	figure	0	1.69225406647	CIRCLE	TOP
6b0d31c0d563223024da45691584643ac78c96e8	m	12	r	0	8	False	central	4	circle	background	90	0.610994100571	CIRCLE	TOP
6b0d31c0d563223024da45691584643ac78c96e8	m	12	r	0	9	False	central	4	circle	figure	90	0.745218992233	CIRCLE	TOP
6b0d31c0d563223024da45691584643ac78c96e8	m	12	r	0	10	False	peripheral	8	square	background	90	0.845903158188	SQUARE	TOP
6b0d31c0d563223024da45691584643ac78c96e8	m	12	r	0	11	False	peripheral	4	square	figure	0	1.35230517387	CIRCLE	TOP
6b0d31c0d563223024da45691584643ac78c96e8	m	12	r	0	12	False	central	4	square	figure	0	0.758177995682	SQUARE	TOP
6b0d31c0d563223024da45691584643ac78c96e8	m	12	r	0	13	False	peripheral	8	circle	figure	0	0.972400903702	CIRCLE	TOP
6b0d31c0d563223024da45691584643ac78c96e8	m	12	r	0	14	False	central	8	square	background	180	1.02089500427	SQUARE	BOTTOM
6b0d31c0d563223024da45691584643ac78c96e8	m	12	r	0	15	False	central	8	square	figure	90	1.16855692863	SQUARE	BOTTOM
6b0d31c0d563223024da45691584643ac78c96e8	m	12	r	0	16	False	central	6	circle	figure	0	1.11442089081	CIRCLE	TOP
6b0d31c0d563223024da45691584643ac78c96e8	m	12	r	0	17	False	central	6	circle	background	90	0.608909130096	CIRCLE	BOTTOM
6b0d31c0d563223024da45691584643ac78c96e8	m	12	r	0	18	False	central	6	square	figure	270	2.82904410362	SQUARE	BOTTOM
6b0d31c0d563223024da45691584643ac78c96e8	m	12	r	0	19	False	central	4	square	background	270	0.556715965271	SQUARE	BOTTOM
6b0d31c0d563223024da45691584643ac78c96e8	m	12	r	0	20	False	peripheral	4	square	background	0	0.551259994507	SQUARE	TOP
6b0d31c0d563223024da45691584643ac78c96e8	m	12	r	0	21	False	central	6	square	background	180	0.845780134201	CIRCLE	TOP
6b0d31c0d563223024da45691584643ac78c96e8	m	12	r	0	22	False	peripheral	6	circle	background	90	0.590239048004	CIRCLE	BOTTOM
6b0d31c0d563223024da45691584643ac78c96e8	m	12	r	0	23	False	peripheral	6	square	background	180	0.551211118698	SQUARE	BOTTOM
6b0d31c0d563223024da45691584643ac78c96e8	m	12	r	0	24	False	peripheral	4	circle	figure	90	3.01876187325	CIRCLE	TOP
6b0d31c0d563223024da45691584643ac78c96e8	m	12	r	0	1	False	central	4	square	background	180	0.720554828644	SQUARE	TOP
6b0d31c0d563223024da45691584643ac78c96e8	m	12	r	0	2	False	peripheral	4	circle	figure	270	1.20966601372	CIRCLE	BOTTOM
6b0d31c0d563223024da45691584643ac78c96e8	m	12	r	0	3	False	peripheral	4	square	figure	0	1.174710989	SQUARE	BOTTOM
6b0d31c0d563223024da45691584643ac78c96e8	m	12	r	0	4	False	peripheral	4	square	background	90	1.80384492874	SQUARE	BOTTOM
6b0d31c0d563223024da45691584643ac78c96e8	m	12	r	0	5	False	central	6	square	figure	270	1.42220497131	SQUARE	BOTTOM
6b0d31c0d563223024da45691584643ac78c96e8	m	12	r	0	6	False	peripheral	6	square	background	270	1.41499495506	SQUARE	BOTTOM
6b0d31c0d563223024da45691584643ac78c96e8	m	12	r	0	7	False	peripheral	6	circle	background	180	0.636247873306	CIRCLE	BOTTOM
6b0d31c0d563223024da45691584643ac78c96e8	m	12	r	0	8	False	central	6	circle	background	90	1.93461298943	CIRCLE	BOTTOM
6b0d31c0d563223024da45691584643ac78c96e8	m	12	r	0	9	False	peripheral	8	circle	background	0	2.0354681015	CIRCLE	TOP
6b0d31c0d563223024da45691584643ac78c96e8	m	12	r	0	10	False	central	4	square	figure	180	0.937592029572	SQUARE	BOTTOM
6b0d31c0d563223024da45691584643ac78c96e8	m	12	r	0	11	False	peripheral	6	circle	figure	0	2.06786394119	CIRCLE	TOP
6b0d31c0d563223024da45691584643ac78c96e8	m	12	r	0	12	False	central	6	circle	figure	270	1.56192302704	CIRCLE	BOTTOM
6b0d31c0d563223024da45691584643ac78c96e8	m	12	r	0	13	False	central	8	circle	background	90	0.760405063629	CIRCLE	BOTTOM
6b0d31c0d563223024da45691584643ac78c96e8	m	12	r	0	14	False	central	6	square	background	90	0.689296960831	SQUARE	BOTTOM
6b0d31c0d563223024da45691584643ac78c96e8	m	12	r	0	15	False	central	4	circle	background	270	0.644229888916	CIRCLE	TOP
6b0d31c0d563223024da45691584643ac78c96e8	m	12	r	0	16	False	peripheral	8	square	figure	180	1.22600698471	SQUARE	BOTTOM
6b0d31c0d563223024da45691584643ac78c96e8	m	12	r	0	17	False	central	8	circle	figure	0	0.67206788063	CIRCLE	BOTTOM
6b0d31c0d563223024da45691584643ac78c96e8	m	12	r	0	18	False	central	8	square	background	90	0.689023971558	SQUARE	BOTTOM
6b0d31c0d563223024da45691584643ac78c96e8	m	12	r	0	19	False	central	8	square	figure	180	0.94273018837	SQUARE	BOTTOM
6b0d31c0d563223024da45691584643ac78c96e8	m	12	r	0	20	False	peripheral	4	circle	background	180	0.552450895309	CIRCLE	BOTTOM
6b0d31c0d563223024da45691584643ac78c96e8	m	12	r	0	21	False	central	4	circle	figure	180	0.652259111404	CIRCLE	BOTTOM
6b0d31c0d563223024da45691584643ac78c96e8	m	12	r	0	22	False	peripheral	6	square	figure	270	1.19059109688	SQUARE	BOTTOM
6b0d31c0d563223024da45691584643ac78c96e8	m	12	r	0	23	False	peripheral	8	square	background	180	0.523983001709	SQUARE	BOTTOM
6b0d31c0d563223024da45691584643ac78c96e8	m	12	r	0	24	False	peripheral	8	circle	figure	90	1.02755093575	CIRCLE	TOP
6b0d31c0d563223024da45691584643ac78c96e8	m	12	r	0	1	False	peripheral	4	square	figure	90	1.17408704758	SQUARE	BOTTOM
6b0d31c0d563223024da45691584643ac78c96e8	m	12	r	0	2	False	central	4	square	figure	180	0.759279966354	SQUARE	BOTTOM
6b0d31c0d563223024da45691584643ac78c96e8	m	12	r	0	3	False	central	6	square	background	270	0.995898008347	SQUARE	BOTTOM
6b0d31c0d563223024da45691584643ac78c96e8	m	12	r	0	4	False	central	8	circle	background	0	0.61567902565	CIRCLE	BOTTOM
6b0d31c0d563223024da45691584643ac78c96e8	m	12	r	0	5	False	central	4	circle	background	0	0.678982019424	CIRCLE	BOTTOM
6b0d31c0d563223024da45691584643ac78c96e8	m	12	r	0	6	False	central	8	circle	figure	90	0.59928894043	CIRCLE	TOP
6b0d31c0d563223024da45691584643ac78c96e8	m	12	r	0	7	False	peripheral	8	square	background	180	0.797957897186	SQUARE	TOP
6b0d31c0d563223024da45691584643ac78c96e8	m	12	r	0	8	False	central	6	circle	figure	90	0.64849281311	CIRCLE	BOTTOM
6b0d31c0d563223024da45691584643ac78c96e8	m	12	r	0	9	False	peripheral	8	circle	background	0	0.920743942261	CIRCLE	BOTTOM
6b0d31c0d563223024da45691584643ac78c96e8	m	12	r	0	10	False	peripheral	6	square	background	270	0.732943058014	SQUARE	BOTTOM
6b0d31c0d563223024da45691584643ac78c96e8	m	12	r	0	11	False	central	6	circle	background	270	0.676697969437	CIRCLE	BOTTOM
6b0d31c0d563223024da45691584643ac78c96e8	m	12	r	0	12	False	peripheral	4	square	background	180	0.536227941513	SQUARE	TOP
6b0d31c0d563223024da45691584643ac78c96e8	m	12	r	0	13	False	peripheral	6	circle	background	0	0.645973920822	CIRCLE	BOTTOM
6b0d31c0d563223024da45691584643ac78c96e8	m	12	r	0	14	False	peripheral	8	circle	figure	270	1.67476892471	CIRCLE	TOP
6b0d31c0d563223024da45691584643ac78c96e8	m	12	r	0	15	False	central	4	square	background	0	0.860887050629	SQUARE	BOTTOM
6b0d31c0d563223024da45691584643ac78c96e8	m	12	r	0	16	False	peripheral	6	square	figure	270	1.26930809021	SQUARE	TOP
6b0d31c0d563223024da45691584643ac78c96e8	m	12	r	0	17	False	peripheral	4	circle	background	90	0.641903162003	CIRCLE	TOP
6b0d31c0d563223024da45691584643ac78c96e8	m	12	r	0	18	False	central	8	square	figure	180	1.35122418404	SQUARE	TOP
6b0d31c0d563223024da45691584643ac78c96e8	m	12	r	0	19	False	peripheral	4	circle	figure	180	1.82326698303	SQUARE	TOP
6b0d31c0d563223024da45691584643ac78c96e8	m	12	r	0	20	False	peripheral	6	circle	figure	90	1.48671388626	CIRCLE	BOTTOM
6b0d31c0d563223024da45691584643ac78c96e8	m	12	r	0	21	False	central	4	circle	figure	90	1.35207390785	SQUARE	BOTTOM
6b0d31c0d563223024da45691584643ac78c96e8	m	12	r	0	22	False	peripheral	8	square	figure	270	0.945106983185	SQUARE	TOP
6b0d31c0d563223024da45691584643ac78c96e8	m	12	r	0	23	False	central	8	square	background	180	1.0256459713	SQUARE	BOTTOM
6b0d31c0d563223024da45691584643ac78c96e8	m	12	r	0	24	False	central	6	square	figure	90	2.03121399879	SQUARE	BOTTOM