participant	gender	age	handedness	block_num	trial_num	practicing	mask_type	mask_size	background	figure	d_orientation	rt	response	initial_fixation
d
e
m
o
_
u
s
e
r
	
-
	
-
	
-
	
0
	
2
	
F
a
l
s
e
	
c
e
n
t
r
a
l
	
4
	
c
i
r
c
l
e
	
f
i
g
u
r
e
	
2
7
0
	
0
.
6
2
4
2
7
3
0
6
1
7
5
2
	
C
I
R
C
L
E
	
B
O
T
T
O
M